Folder: Pollock/survey_sample/csv

Note: README.md
# Pollock
Pollock is a benchmark for data loading on character-delimited files, developed at the Information Systems Group of the Hasso Plattner Institute.

## Setup

The code is written using Python 3.8.5.
If using a local (or virtual) environment, install dependencies with
`pip install -r requirements.txt`
Alternatively, if using a conda distribution on Linux, use:
`conda env create --file pollock.yml`

## Benchmark files
Due to the GitHub file policy, the files composing the benchmark are contained in a compressed file (files/polluted.tar.gz).
The same files can be programmatically generated from the source file (files/source.csv), by running the command:

`python3 pollute_main.py`

The script produces the set of benchmark files in the two folders "files/polluted_files_csv/" and "files/polluted_files_xml/".
The former contains the generated polluted files in the .csv format, while the latter their XML trees with metadata attributes.

## Running the benchmark

To benchmark a specific system, load all the files in the "files/polluted_files_csv" folder and export them back in csv format in a new folder.
Then, use the benchmark.py script with the following command:

`python3 benchmark.py --sut sut_folder`

The script reports the overall success, completeness, and conciseness score and outputs the specific results for each of the benchmark files in a CSV file, whose path can be specified with the --result parameter.
For the full list of parameters, run:

`python3 benchmark.py --help`

## Experimental results

In the repository we include the result files of the benchmark on four different systems:
 - A spreadsheet system, named 'ss'
 - A data science programming framework, named 'ds'
 - A relational dbms, named 'db'
 - A data visualization and business intelligend tool, named 'bi'

For each of these systems, the resulting files from loading polluted files of our benchmark can be found in the file 'sut/systems.tar.gz'.
Extracting these files, users can reproduce the experimental results reported in our benchmark paper.

File: 1% SiO2_003.csv
Created as New Dataset,Sample 022 By Administrator Date Saturday, February 11 2017
cm-1,%T
4000.00,98.78
3988.00,98.77
3976.00,98.77
3964.00,98.75
3952.00,98.74
3940.00,98.73
3928.00,98.70
3916.00,98.74
3904.00,98.85
3892.00,98.79
3880.00,98.71
3868.00,98.76
3856.00,98.82
3844.00,98.75
3832.00,98.77
3820.00,98.75
3808.00,98.77
3796.00,98.72
3784.00,98.72
3772.00,98.74
3760.00,98.72
3748.00,98.92
3736.00,98.74
3724.00,98.65
3712.00,98.75
3700.00,98.66
3688.00,98.60
3676.00,98.43
3664.00,98.51
3652.00,98.30
3640.00,98.25
3628.00,98.19
3616.00,97.93
3604.00,97.78
3592.00,97.67
3580.00,97.59
3568.00,97.37
3556.00,97.34
3544.00,97.19
3532.00,97.07
3520.00,96.91
3508.00,96.72
3496.00,96.62
3484.00,96.49
3472.00,96.40
3460.00,96.33
3448.00,96.26
3436.00,96.24
3424.00,96.24
3412.00,96.23
3400.00,96.25
3388.00,96.23
3376.00,96.20
3364.00,96.14
3352.00,96.10
3340.00,96.10
3328.00,96.10
3316.00,96.14
3304.00,96.18
3292.00,96.19
3280.00,96.20
3268.00,96.20
3256.00,96.21
3244.00,96.23
3232.00,96.26
3220.00,96.30
3208.00,96.36
3196.00,96.43
3184.00,96.52
3172.00,96.58
3160.00,96.65
3148.00,96.73
3136.00,96.77
3124.00,96.82
3112.00,96.88
3100.00,96.92
3088.00,96.99
3076.00,97.01
3064.00,97.05
3052.00,97.11
3040.00,97.17
3028.00,97.21
3016.00,97.27
3004.00,97.25
2992.00,97.11
2980.00,96.86
2968.00,96.58
2956.00,96.70
2944.00,96.83
2932.00,96.76
2920.00,96.86
2908.00,96.97
2896.00,97.09
2884.00,97.03
2872.00,96.98
2860.00,97.20
2848.00,97.37
2836.00,97.57
2824.00,97.71
2812.00,97.80
2800.00,97.84
2788.00,97.87
2776.00,97.93
2764.00,97.95
2752.00,97.98
2740.00,98.00
2728.00,98.04
2716.00,98.06
2704.00,98.07
2692.00,98.10
2680.00,98.11
2668.00,98.12
2656.00,98.07
2644.00,98.08
2632.00,98.03
2620.00,97.98
2608.00,97.91
2596.00,97.87
2584.00,97.87
2572.00,97.88
2560.00,97.88
2548.00,97.85
2536.00,97.71
2524.00,97.30
2512.00,97.08
2500.00,97.49
2488.00,97.88
2476.00,98.05
2464.00,98.14
2452.00,98.14
2440.00,98.17
2428.00,98.20
2416.00,98.22
2404.00,98.30
2392.00,98.32
2380.00,98.37
2368.00,98.40
2356.00,98.36
2344.00,98.34
2332.00,98.34
2320.00,98.29
2308.00,98.29
2296.00,98.25
2284.00,98.15
2272.00,98.23
2260.00,98.22
2248.00,98.21
2236.00,98.21
2224.00,98.21
2212.00,98.18
2200.00,98.19
2188.00,98.26
2176.00,98.32
2164.00,98.14
2152.00,98.47
2140.00,98.46
2128.00,98.55
2116.00,98.44
2104.00,98.43
2092.00,98.45
2080.00,98.37
2068.00,98.38
2056.00,98.38
2044.00,98.38
2032.00,98.49
2020.00,98.64
2008.00,98.64
1996.00,98.54
1984.00,98.45
1972.00,98.67
1960.00,98.65
1948.00,98.70
1936.00,98.71
1924.00,98.71
1912.00,98.70
1900.00,98.74
1888.00,98.77
1876.00,98.81
1864.00,98.82
1852.00,98.85
1840.00,98.84
1828.00,98.73
1816.00,98.71
1804.00,97.92
1792.00,97.10
1780.00,98.07
1768.00,97.80
1756.00,97.38
1744.00,96.88
1732.00,96.43
1720.00,96.05
1708.00,95.74
1696.00,95.17
1684.00,93.03
1672.00,90.64
1660.00,88.53
1648.00,87.55
1636.00,87.01
1624.00,87.39
1612.00,89.08
1600.00,91.36
1588.00,92.30
1576.00,92.96
1564.00,93.13
1552.00,92.81
1540.00,90.94
1528.00,88.69
1516.00,84.28
1504.00,80.33
1492.00,76.52
1480.00,70.64
1468.00,64.66
1456.00,57.92
1444.00,52.38
1432.00,46.77
1420.00,42.11
1408.00,41.16
1396.00,44.01
1384.00,50.42
1372.00,56.91
1360.00,62.23
1348.00,67.11
1336.00,70.05
1324.00,69.46
1312.00,72.26
1300.00,76.82
1288.00,78.74
1276.00,79.89
1264.00,79.10
1252.00,79.30
1240.00,79.31
1228.00,79.88
1216.00,81.30
1204.00,82.89
1192.00,83.40
1180.00,82.00
1168.00,83.48
1156.00,84.76
1144.00,85.22
1132.00,85.28
1120.00,84.60
1108.00,83.92
1096.00,83.91
1084.00,84.02
1072.00,84.69
1060.00,84.88
1048.00,84.31
1036.00,84.32
1024.00,85.01
1012.00,85.59
1000.00,88.01
988.00,89.31
976.00,90.09
964.00,90.49
952.00,90.81
940.00,91.21
928.00,91.60
916.00,91.94
904.00,92.39
892.00,92.21
880.00,66.90
868.00,69.44
856.00,85.87
844.00,86.34
832.00,83.47
820.00,85.38
808.00,85.94
796.00,86.54
784.00,85.99
772.00,87.23
760.00,87.17
748.00,87.81
736.00,88.07
724.00,88.10
712.00,71.15
700.00,85.71
688.00,86.31
676.00,86.21
664.00,85.98
652.00,85.78
640.00,85.54
628.00,85.94
616.00,85.17
604.00,85.15
592.00,84.61
580.00,84.19
568.00,84.03
556.00,83.52
550.00,83.08